Folder: Python2024TV

Note: colonne.txt
F 	m	 a
3.22 	2.91 	4.35
5.81 	9.35 	2.34
5.66 	8.92 	3.31
9.76 	5.68 	6.11
3.11 	2.18 	1.12

Note: LDPE_scan_2.txt
[TA Ascii File]
DSC50

File Name :	C:\EC\Macromolecole2025\Gruppo1\LDPE_scan2.txt

[File Information]
File Name:	LDPE_scan2.tad
Sample Name:	LDPE
Lot No:	
Acquire Date:	25/04/09
Acquire Time:	17:05:48
Detector Type:	DSC50
Detector Serial No:	
Operator:	
Atmosphere:	
Gas Flow:	0[ml/min]
Annotation:	
Pan Name:	
Sample Weight:	4.100[mg]
Molecular Weight:	0.00


[Measurements Program]
[Temperature Program]
Start Temp.	
Temp. Rate	Hold Temp.	Hold Time
[ C/min  ]	[   C  ]	[ min  ]
10.00	140.0	0


[Valve Program]
V1:	0
V2:	0
V1	V2	Direction	Hold Temp.	Hold Time
			[  C   ]	[ min  ]

- Repeat Program -
Init.	Final	Count


[PID Program]
P :	10
I  :	10
D :	10
Temp.	Direction	P	I	D
[  C  ]

- Repeat Program -
Init.	Final	Count


[Data]
Time	        Temp	        DSC
sec	        C	        mW
0.000000	46.401234	0.019297
1.000000	46.389885	0.019747
2.000000	46.382751	0.017066
3.000000	46.378654	0.014017
4.000000	46.364502	0.012646
5.000000	46.359940	0.011193
6.000000	46.348354	0.009556
7.000000	46.344368	0.005689
8.000000	46.345428	0.004768
9.000000	46.362976	0.001842
10.000000	46.368591	-0.000921
11.000000	46.384388	-0.004256
12.000000	46.394913	-0.007592
13.000000	46.407085	-0.011889
14.000000	46.430954	-0.017107
15.000000	46.459385	-0.021977
16.000000	46.485825	-0.027298
17.000000	46.532635	-0.034316
18.000000	46.567028	-0.041540
19.000000	46.614296	-0.048211
20.000000	46.661098	-0.056764
21.000000	46.703098	-0.064806
22.000000	46.754818	-0.073830
23.000000	46.812031	-0.083018
24.000000	46.865967	-0.094436
25.000000	46.920135	-0.103379
26.000000	46.973961	-0.112812
27.000000	47.035969	-0.124537
28.000000	47.092018	-0.134974
29.000000	47.156013	-0.146637
30.000000	47.219902	-0.154679
31.000000	47.287292	-0.165832
32.000000	47.350357	-0.176472
33.000000	47.409790	-0.186417
34.000000	47.490875	-0.197222
35.000000	47.565639	-0.206307
36.000000	47.620396	-0.215434
37.000000	47.698437	-0.226034
38.000000	47.773438	-0.233707
39.000000	47.856037	-0.243161
40.000000	47.919804	-0.250712
41.000000	48.001476	-0.257322
42.000000	48.077293	-0.263235
43.000000	48.161880	-0.270991
44.000000	48.231148	-0.278296
45.000000	48.309422	-0.283903
46.000000	48.378452	-0.288221
47.000000	48.467140	-0.295403
48.000000	48.553024	-0.300437
49.000000	48.628372	-0.305941
50.000000	48.708862	-0.310832
51.000000	48.794277	-0.314393
52.000000	48.888344	-0.318915
53.000000	48.975632	-0.323867
54.000000	49.049110	-0.327673
55.000000	49.147743	-0.329760
56.000000	49.236427	-0.334364
57.000000	49.333893	-0.337475
58.000000	49.417084	-0.339644
59.000000	49.505844	-0.342591
60.000000	49.581596	-0.345885
61.000000	49.676758	-0.348075
62.000000	49.767479	-0.349384
63.000000	49.856327	-0.351778
64.000000	49.952309	-0.354009
65.000000	50.031807	-0.357119
66.000000	50.125217	-0.359370
67.000000	50.228561	-0.361028
68.000000	50.329224	-0.362521
69.000000	50.422867	-0.363442
70.000

Note: mappa1_50X_532nm_50%_3s_5acc_10umx10um_px1um_0__X_-30989.7__Y_-19234.3__Time_0.txt
2818.360352	16740.996094
2816.994141	16722.988281
2815.627930	16778.974609
2814.261719	16831.335938
2812.894531	16935.863281
2811.527344	16909.003906
2810.159180	16756.236328
2808.791992	16860.710938
2807.423828	16790.726563
2806.055664	16880.769531
2804.686523	16911.460938
2803.317383	16717.513672
2801.948242	16884.767578
2800.579102	16990.880859
2799.208984	17048.458984
2797.838867	17005.462891
2796.468750	17034.291016
2795.097656	16933.880859
2793.727539	16941.177734
2792.356445	17084.818359
2790.984375	16932.439453
2789.612305	17172.861328
2788.241211	17226.714844
2786.868164	17034.962891
2785.496094	17092.406250
2784.123047	17316.466797
2782.750000	17260.962891
2781.375977	17413.251953
2780.002930	17470.566406
2778.628906	17615.585938
2777.253906	17418.652344
2775.879883	17583.306641
2774.504883	17715.687500
2773.129883	17568.939453
2771.753906	18064.341797
2770.378906	18096.400391
2769.002930	17837.031250
2767.625977	18096.126953
2766.250000	18226.445313
2764.873047	18142.304688
2763.496094	18469.056641
2762.118164	18652.794922
2760.741211	18604.328125
2759.363281	18873.652344
2757.984375	19316.000000
2756.606445	19369.140625
2755.227539	19657.767578
2753.848633	19930.218750
2752.468750	20272.111328
2751.088867	20303.611328
2749.708984	20661.328125
2748.329102	21063.455078
2746.948242	21289.003906
2745.567383	21771.005859
2744.186523	22154.841797
2742.805664	22504.683594
2741.423828	23069.818359
2740.041992	23506.552734
2738.659180	24115.742188
2737.277344	24804.751953
2735.894531	25251.531250
2734.510742	26037.847656
2733.127930	26749.154297
2731.744141	27285.927734
2730.360352	28259.759766
2728.976563	28835.099609
2727.591797	29522.140625
2726.207031	30557.085938
2724.822266	31605.812500
2723.436523	32634.574219
2722.050781	33110.769531
2720.665039	34264.820313
2719.278320	35210.761719
2717.892578	36205.992188
2716.505859	36915.210938
2715.118164	38234.238281
2713.731445	39249.503906
2712.343750	40491.273438
2710.956055	41700.625000
2709.567383	43283.386719
2708.178711	44142.632813
2706.790039	45090.089844
2705.401367	45736.082031
2704.011719	47550.429688
2702.622070	48555.011719
2701.232422	49837.050781
2699.841797	50485.066406
2698.451172	52130.628906
2697.060547	53246.632813
2695.669922	53778.585938
2694.278320	54697.531250
2692.886719	55660.285156
2691.495117	56606.734375
2690.102539	57010.324219
2688.709961	57593.937500
2687.317383	57894.707031
2685.924805	58723.355469
2684.531250	58582.375000
2683.137695	59154.582031
2681.743164	58325.285156
2680.349609	58094.480469
2678.955078	58017.238281
2677.560547	57081.093750
2676.165039	56462.734375
2674.769531	56223.671875
2673.374023	54976.480469
2671.978516	54004.710938
2670.582031	52619.292969
2669.185547	51586.750000
2667.789063	50153.082031
2666.391602	48936.582031
2664.994141	47359.687500
2663.596680	46580.761719
2662.198242	44674.167969
2660.800781	43531.921875
2659.40136

File: HDPE_scan1.txt
Punto Numero:	Temperatura:	Heatflow:
1	  61.0	    0.099
4	  61.0	    0.105
7	  61.0	    0.132
10	  61.1	    0.187
13	  61.3	    0.234
16	  61.6	    0.259
19	  61.9	    0.254
22	  62.2	    0.220
25	  62.6	    0.162
28	  63.1	    0.082
31	  63.5	   -0.008
34	  64.0	   -0.101
37	  64.4	   -0.195
40	  64.9	   -0.284
43	  65.3	   -0.363
46	  65.8	   -0.429
49	  66.3	   -0.499
52	  66.7	   -0.555
55	  67.2	   -0.604
58	  67.7	   -0.644
61	  68.1	   -0.679
64	  68.6	   -0.711
67	  69.1	   -0.734
70	  69.6	   -0.757
73	  70.0	   -0.776
76	  70.5	   -0.791
79	  71.0	   -0.804
82	  71.5	   -0.816
85	  71.9	   -0.825
88	  72.4	   -0.832
91	  72.9	   -0.836
94	  73.4	   -0.839
97	  73.9	   -0.845
100	  74.4	   -0.849
103	  74.9	   -0.853
106	  75.3	   -0.857
109	  75.8	   -0.860
112	  76.3	   -0.864
115	  76.8	   -0.866
118	  77.3	   -0.870
121	  77.8	   -0.873
124	  78.3	   -0.876
127	  78.7	   -0.880
130	  79.2	   -0.884
133	  79.7	   -0.885
136	  80.2	   -0.888
139	  80.7	   -0.890
142	  81.2	   -0.894
145	  81.7	   -0.897
148	  82.1	   -0.900
151	  82.6	   -0.903
154	  83.1	   -0.908
157	  83.6	   -0.912
160	  84.1	   -0.917
163	  84.6	   -0.922
166	  85.1	   -0.926
169	  85.6	   -0.930
172	  86.0	   -0.933
175	  86.5	   -0.937
178	  87.0	   -0.939
181	  87.5	   -0.943
184	  88.0	   -0.948
187	  88.5	   -0.954
190	  89.0	   -0.959
193	  89.5	   -0.964
196	  90.0	   -0.970
199	  90.5	   -0.976
202	  91.0	   -0.981
205	  91.5	   -0.986
208	  92.0	   -0.990
211	  92.4	   -0.994
214	  93.0	   -0.998
217	  93.4	   -1.002
220	  93.9	   -1.007
223	  94.4	   -1.014
226	  94.9	   -1.020
229	  95.4	   -1.026
232	  95.9	   -1.032
235	  96.4	   -1.040
238	  96.9	   -1.046
241	  97.4	   -1.053
244	  97.9	   -1.058
247	  98.3	   -1.066
250	  98.8	   -1.072
253	  99.3	   -1.079
256	  99.8	   -1.085
259	 100.3	   -1.091
262	 100.8	   -1.098
265	 101.3	   -1.107
268	 101.8	   -1.116
271	 102.3	   -1.126
274	 102.8	   -1.135
277	 103.3	   -1.146
280	 103.8	   -1.155
283	 104.3	   -1.165
286	 104.8	   -1.176
289	 105.3	   -1.187
292	 105.8	   -1.198
295	 106.2	   -1.210
298	 106.7	   -1.224
301	 107.2	   -1.238
304	 107.7	   -1.252
307	 108.2	   -1.258
310	 108.7	   -1.281
313	 109.2	   -1.297
316	 109.7	   -1.314
319	 110.2	   -1.330
322	 110.7	   -1.348
325	 111.2	   -1.366
328	 111.7	   -1.388
331	 112.2	   -1.410
334	 112.7	   -1.434
337	 113.2	   -1.459
340	 113.6	   -1.484
343	 114.1	   -1.514
346	 114.7	   -1.547
349	 115.1	   -1.580
352	 115.6	   -1.620
355	 116.1	   -1.661
358	 116.6	   -1.702
361	 117.1	   -1.747
364	 117.6	   -1.794
367	 118.1	   -1.845
370	 118.6	   -1.901
373	 119.0	   -1.962
376	 119.5	   -2.027
379	 120.0	   -2.089
382	 120.5	   -2.173
385	 121.0	   -2.260
388	 121.5	   -2.354
391	 122.0	   -2.458
394	 122.4	   -2.567
397	 123.0	   -2.687
400	 123.4	   -2.819
403	 123.8	   -2.961
406	 124.3	   -3.116
409	 124.8	   -3.284
412	 125.3	   -3.459
415	 125.7	   -3.654
418	 126.2	   -3.872
421	 126.7	   -4.118
424	 127.1	   -4.396
427	 127.6	   -4.714
430	 128.0	   -5.069
433	 128.5	   -5.451
436	 128.9	   -5.843
439	 129.3	   -6.246
442	 129.8	   -6.679
445	 130.2	   -7.105
448	 130.6	   -7.512
451	 131.1	   -7.865
454	 131.5	   -8.140
457	 132.0	   -8.288
460	 132.5	   -8.285
463	 133.0	   -8.122
466	 133.6	   -7.779
469	 134.2	   -7.230
472	 134.8	   -6.451
475	 135.4	   -5.580
478	 136.1	   -4.748
481	 136.7	   -4.012
484	 137.2	   -3.392
487	 137.8	   -2.884
490	 138.4	   -2.471
493	 138.9	   -2.141
496	 139.4	   -1.868
499	 140.0	   -1.649
502	 140.5	   -1.476
505	 141.0	   -1.337
508	 141.6	   -1.223
511	 142.0	   -1.132
514	 142.6	   -1.057
517	 143.1	   -0.998
520	 143.6	   -0.949
523	 144.1	   -0.911
526	 144.6	   -0.880
529	 145.1	   -0.854
532	 145.6	   -0.835
535	 146.1	   -0.820
538	 146.6	   -0.806
541	 147.1	   -0.793
544	 147.6	   -0.783
547	 148.1	   -0.775
550	 148.6	   -0.769
553	 149.1	   -0.764
556	 149.6	   -0.759
559	 150.1	   -0.755
562	 150.6	   -0.752
565	 151.1	   -0.751
568	 151.6	   -0.749
571	 152.1	   -0.746
574	 152.6	   -0.743
577	 153.1	   -0.740
580	 153.6	   -0.738
583	 154.1	   -0.738
586	 154.6	   -0.739
589	 155.1	   -0.733
592	 155.6	   -0.733
595	 156.1	   -0.732
598	 156.5	   -0.731
601	 157.0	   -0.730
604	 157.5	   -0.729
607	 158.1	   -0.726
610	 158.6	   -0.724
613	 159.0	   -0.723
616	 159.5	   -0.723
617	 159.7	   -0.724